File: aluminum_wire_properties_10000.csv
Al (%),Mg (%),Si (%),Zn (%),Temperature (Â°C),Rolling Speed (m/s),"Heat Treatment (Yes=1, No=0)",Tensile Strength (MPa),Yield Strength (MPa),Elongation (%)
93.4982,2.49456,1.595,1.27629,394.837,1.07779,1,352.748,284.935,8.93648
92.7336,1.05632,1.84938,1.64012,414.181,0.998342,0,321.121,267.286,14.8677
94.4302,1.02136,1.67817,1.26328,417.609,0.919094,0,316.411,254.948,15.6448
94.6501,3.47741,1.78712,1.27122,492.388,0.845359,0,343.123,275.371,8.68158
93.5547,2.03263,1.15698,1.12208,396.802,0.666173,0,331.911,267.043,11.5717
94.916,2.09654,1.23999,0.643221,452.447,0.867676,0,323.737,269.808,10.3415
92.4784,1.88511,1.56035,1.51945,395.177,1.11032,0,326.395,264.728,10.3439
92.9972,1.89041,0.696837,0.471686,438.373,1.01618,0,325.668,260.75,11.6885
95.2298,1.08204,1.54374,0.697905,461.029,0.936659,0,322.619,249.638,12.555
93.2928,1.05788,0.612182,0.545227,483.972,0.558741,0,313.055,257.916,13.9865
95.6331,4.55477,0.616841,0.586647,388.485,0.417785,0,346.565,287.424,8.84405
95.3412,1.50245,0.908382,1.92356,499.812,1.17621,1,345.493,289.02,11.1422
93.3643,3.71727,1.89731,0.191691,395.576,0.898083,0,346.406,277.646,10.3537
93.3968,4.71712,1.70892,1.62581,467.141,0.417573,1,391.296,304.554,6.29372
94.1949,4.90393,0.831055,1.64991,471.513,1.11844,1,377.207,303.241,4.94915
92.976,3.18243,1.13592,0.647551,359.25,0.725916,1,373.555,292.42,8.2958
95.7618,3.1844,0.927793,1.91457,431.655,0.643422,1,367.641,292.271,11.0483
94.2272,1.04706,1.42323,1.21837,367.42,0.928322,1,348.873,281.495,11.1805
95.2374,2.53678,1.10709,0.480477,360.514,0.52762,1,366.433,289.487,9.77095
92.1438,1.43249,1.79393,0.496216,396.11,1.19545,1,358.105,280.84,10.7886
92.2067,4.64494,1.76554,1.66,382.853,0.535635,0,348.45,282.874,7.64673
94.7839,3.12844,0.505406,1.05266,433.841,1.16912,1,361.026,296.009,8.10042
93.4239,3.84825,0.827706,0.724735,364.794,0.872251,1,375.078,305.379,7.21288
94.4634,2.73843,1.35286,0.585176,383.308,0.430422,0,337.147,278.726,10.5458
93.5527,4.52053,1.97512,1.42657,394.497,0.844072,1,374.379,296.89,6.6379
93.2759,2.974,1.33518,1.43707,443.544,0.482307,0,335.081,277.84,10.0168
95.962,4.54551,1.01392,1.3347,372.073,1.13677,0,351.827,284.606,8.32203
95.5821,1.61245,1.1397,0.169428,453.704,0.999623,1,354.28,284.134,11.1696
95.1663,1.74965,1.10901,1.77486,465.739,0.798225,0,322.467,262.473,11.0811
94.8039,2.45276,1.41425,1.78161,463.27,0.650896,0,331.747,263.899,11.8875
95.1086,3.91561,1.78935,1.2834,405.629,0.887946,1,383.351,294.55,6.0952
93.4995,2.47553,0.677792,1.50202,458.391,1.07767,1,353.414,283.188,9.98738
94.5176,2.00605,1.76786,1.51358,351.433,0.500341,1,355.551,287.792,9.02757
93.4134,1.66618,1.94133,0.681965,491.97,0.611889,1,361.398,287.282,11.8768
94.4537,1.48635,0.768426,0.5517,467.58,0.886547,1,350.057,282.469,10.5065
93.8748,4.05698,0.687356,0.707926,498.896,0.768181,0,335.193,282.846,9.06722
95.8162,1.41822,1.46104,1.86281,430.888,0.651987,1,345.193,281.72,11.2283
93.6139,3.03956,1.65921,0.993334,384.829,0.889158,0,335.232,276.938,9.54508
94.056,3.52003,1.56816,1.52176,363.013,0.401907,0,351.445,282.87,9.94719
92.9606,2.28695,1.8276,0.962587,363.357,0.794091,1,357.094,291.016,9.02449
92.6757,1.7748,1.7768,0.965193,421.7,1.15827,1,360.312,286.359,10.6623
95.6835,3.04518,0.68049,1.32032,399.417,1.14581,1,366.616,294.298,7.38134
94.8534,3.22033,1.72286,1.40031,479.549,0.654171,1,369.684,292.453,9.1082
95.5621,1.29664,1.75672,0.436572,446.971,1.12707,0,334.081,265.19,14.4066
93.4244,2.88202,1.60149,1.89648,431.975,1.01099,1,362.997,289.722,8.48566
95.9295,4.08722,0.72665,1.21326,488.272,0.945531,1,375.285,299.647,6.4263
93.2947,3.90165,0.998405,0.671115,369.199,0.578739,1,371.258,306.068,4.74836
95.9598,3.35685,1.97212,1.83887,437.357,0.771408,0,345.541,275.305,10.8285
95.7534,3.7151,1.76302,1.14545,361.324,0.967238,0,349.019,272.979,10.0363
95.5088,1.83973,1.30055,1.32789,458.689,1.19513,0,326.163,265.461,12.6485
92.4676,2.70578,1.84304,0.0787507,372.318,0.746463,0,342.133,273.932,12.0419
94.2796,3.52312,0.85317,1.87588,423.45,1.00848,0,346.589,275.333,8.85611
94.7758,4.83618,1.84114,0.360782,411.822,0.594016,0,358.341,293.934,7.04498
95.4885,2.36351,1.67355,1.78415,408.149,0.54052,1,367.274,289.389,10.0092
95.9394,3.57746,1.17633,1.43079,378.634,0.474607,1,375.95,315.827,8.50228
95.6794,3.02492,0.953908,0.773258,359.435,1.11668,1,370.249,289.596,7.59222
92.0524,4.41843,0.557139,1.45203,438.583,0.990544,0,341.23,289.245,8.46796
92.7628,3.22719,1.07115,0.941158,480.472,0.920877,0,334.91,280.419,10.8949
93.4932,1.26337,1.48962,1.15094,483.318,0.970285,0,328.177,267.959,12.4348
92.7142,3.77817,0.560361,1.08749,383.085,0.99829,0,338.629,276.742,9.05564
92.8315,3.05753,1.74572,1.66765,375,1.06538,0,345.946,272.568,11.1688
93.7445,1.30691,1.42197,0.119133,450.804,1.1946,0,314.841,254.906,12.559
92.5574,4.45449,1.44368,0.752069,387.91,0.53861,0,357.382,277.523,7.5668
92.044,3.72063,0.907668,1.5639,455.521,0.435359,0,345.919,274.214,7.51103
92.3312,2.26022,1.78209,1.7495,395.967,1.10226,1,355.185,291.238,7.04521
93.0491,2.79251,1.05741,1.45654,409.735,1.03365,1,354.042,291.792,8.60123
95.1977,3.64213,1.5467,0.391232,465.01,1.03104,0,346.797,278.832,10.6104
94.6351,4.79462,1.3273,0.151103,485.795,1.07482,0,354.521,294.647,9.15466
94.7897,3.81113,1.01157,0.089933,442.893,0.536313,0,340.912,272.536,10.5571
94.7852,4.78076,0.786579,0.855297,463.028,0.866383,1,386.408,306.9,6.15076
95.4988,1.09234,1.30687,0.377931,474.866,0.678857,1,354.456,278.137,10.9918
94.9503,1.36434,1.37028,1.97847,405.966,0.579825,1,354.666,279.777,11.9945
95.1454,4.98458,1.86966,1.83217,392.056,1.11808,0,349.08,293.466,7.9011
92.7061,2.25807,0.514991,0.374176,488.383,0.768777,1,359.228,284.813,10.8651
95.2633,3.56648,1.86904,0.443066,362.972,0.841534,0,340.516,275.36,9.81784
94.2034,3.88985,1.76978,1.22318,468.536,0.718821,1,378.785,300.779,7.55274
95.2987,4.06805,1.6749,0.189617,385.952,1.00083,0,354.193,286.35,9.65619
95.0109,2.23936,1.3027,0.036551,432.766,0.898182,0,328.167,266.429,11.1127
94.4677,4.37333,1.91684,0.574261,385.712,0.473665,0,346.923,282.568,6.1288
95.7489,4.96077,0.741358,0.799017,426.038,0.769627,1,380.659,311.752,5.15129
95.0331,1.9086,0.532461,1.30819,455.55,0.919473,1,343.775,288.449,12.7195
92.8831,1.99497,0.666321,0.76981,370.774,0.900805,0,325.853,268.152,11.9527
95.5764,4.18389,1.15656,1.38093,384.515,0.931318,0,346.515,274.141,8.99118
94.5049,4.09322,1.92351,1.31866,393.021,0.666144,0,341.375,280.211,8.51104
93.076,2.09233,0.686457,0.273586,450.093,0.908437,1,346.783,293.683,9.07363
92.4197,2.20012,0.539125,1.99939,477.08,1.14225,0,315.361,265.358,12.435
93.5877,3.35068,1.93515,1.08506,459.455,0.598055,0,344.487,275.871,8.20828
95.4839,1.20453,1.69952,0.820472,374.224,0.758864,0,322.614,256.193,13.0565
92.9884,3.41164,0.702606,0.306241,451.119,0.407536,0,338.466,274.52,9.1355
94.6013,3.26327,1.48843,0.615656,378.707,1.1703,0,343.905,279.903,11.5388
95.4681,2.57104,0.790144,1.40405,496.872,0.556123,1,366.942,290.545,9.07573
92.5263,3.91605,1.00556,1.92656,386.903,0.704723,0,339.611,289.316,9.1959
92.6541,2.70172,0.753431,1.65173,375.311,0.661391,1,362.8,297.799,8.47834
95.3155,2.01554,0.728853,1.60664,428.653,0.966066,0,321.857,262.074,11.9076
92.8234,1.47852,1.85132,1.68359,363.74,1.13564,0,320.995,264.537,14.8206
95.8605,2.46018,1.66783,0.443639,451.097,0.85342,0,335.823,267.472,9.07185
95.8796,2.18502,1.21323,0.270939,470.633,0.966963,1,358.359,281.495,7.77522
95.7238,1.40277,0.548453,1.79044,485.781,0.699232,1,356.316,289.748,10.3011
94.2681,1.23436,0.537252,1.20334,356.082,0.416094,1,349.33,281.502,11.6578
93.4658,2.61093,1.90516,0.284417,485.196,1.09972,0,340.284,272.891,11.2846
94.0763,2.23342,0.968994,0.447183,444.088,1.01115,0,333.983,261.035,12.6113
92.0303,3.5108,1.22338,0.042461,462.128,0.993022,0,339.127,279.807,9.78068
93.2452,4.88561,1.09172,0.691118,376.572,0.897973,1,380.312,309.291,6.7611
93.9342,2.6956,1.76966,1.10476,481.205,0.549294,1,370.25,287.299,9.5189
93.4137,2.65627,1.62201,0.533175,358.161,0.473825,0,335.223,278.072,12.6701
92.3829,1.60635,1.41443,0.881957,414.796,0.43189,0,321.084,258.729,12.8992
94.7697,2.89122,1.40514,1.79012,354.283,0.591232,0,336.402,264.235,10.0021
94.0762,4.15475,1.7564,1.82581,467.852,0.452617,0,351.214,279.911,8.231
93.8608,3.20712,0.643309,1.20742,499.496,0.45217,0,333.15,278.285,10.7458
92.9386,2.52444,0.600271,1.98021,372.985,0.622472,0,327.276,273.482,10.6274
92.1446,2.43677,0.623572,1.76004,422.231,0.724045,0,331.203,263.831,10.1179
95.4057,2.42136,1.76061,0.779295,448.123,1.09962,1,354.997,294.434,9.04762
93.3844,1.65696,1.558,0.383858,392.351,0.796538,0,318.429,265.511,11.2717
92.2727,2.33943,1.95661,0.956199,421.101,1.06891,0,338.194,266.784,11.8357
92.6081,4.42507,1.66787,0.663727,440.409,1.05945,1,388.395,301.965,8.04433
92.2492,2.64197,1.25876,1.76693,432.68,0.910248,1,374.885,292.578,8.77185
95.3102,2.28933,0.540856,0.761625,491.58,1.15109,1,356.613,277.571,10.6967
95.2061,3.03158,0.524924,0.447913,367.45,0.699742,1,366.453,287.634,8.01842
93.8378,1.0334,1.0351,1.57868,449.343,0.973142,0,306.643,252.977,13.9691
95.5805,4.48324,1.33721,1.9156,389.486,0.837178,1,391.321,304.994,5.49347
95.826,1.70854,1.39757,0.974033,397.567,0.445835,0,329.671,263.373,12.273
95.8714,3.06219,1.3532,0.366395,479.918,1.10595,0,335.502,264.614,10.2932
95.9199,2.81622,0.982656,0.336146,476.411,1.07995,1,360.266,288.797,7.99677
92.9628,1.25213,1.78163,0.237569,452.519,1.13645,0,316.683,260.544,12.9424
95.1058,4.64245,1.47739,1.05438,357.138,0.576438,1,388.328,304.943,5.41706
94.1689,4.7471,0.622181,1.82249,490.155,0.65016,1,387.306,303.296,6.0397
92.3967,3.6987,1.92731,0.337806,392.701,0.71335,0,348.794,275.973,10.786
92.8099,4.02533,1.47931,0.371641,482.603,0.714496,1,376.247,291.906,6.50708
94.7825,4.29211,0.726464,0.0950784,380.013,1.11426,0,352.149,292.024,8.31256
95.22,1.74242,0.814891,1.63981,460.943,0.985659,0,321.105,267.422,11.4295
92.3544,4.97349,1.34205,1.08451,447.517,0.708794,0,358.001,289.404,8.25507
94.3511,2.81206,1.94947,0.957484,483.874,1.06356,0,331.128,275.953,10.3621
92.7444,1.56732,0.78666,1.47528,410.677,0.444776,1,351.421,294.999,11.2437
94.6278,1.01858,1.18721,1.11619,481.329,1.1518,1,349.051,281.115,12.0532
92.1345,4.83934,1.97111,0.114385,421.423,0.455989,0,358.069,282.69,8.65637
93.0406,1.24179,0.645218,1.49796,431.971,1.14893,0,320.303,266.932,14.3909
95.4025,3.49403,1.5878,0.133928,432.27,0.814284,0,344.548,280.026,10.2408
94.6761,3.0395,0.815177,0.419091,386.154,1.0959,0,335.255,276.079,9.58341
95.027,2.85512,0.955886,0.261484,358.744,0.884016,1,364.786,290.547,7.54393
93.9913,2.15566,1.43609,0.703364,416.072,0.634285,1,348.94,279.956,10.7848
95.6604,2.62746,0.550767,1.154,457.479,0.52739,1,358.46,286.261,9.06322
92.6084,1.30648,1.96152,1.60099,389.399,0.764221,0,320.087,258.615,13.8635
92.6489,3.45356,1.75991,0.149864,361.624,1.08548,1,374.523,289.678,8.19314
95.2865,3.59399,1.02373,0.482634,414.801,0.403535,0,354.804,276.92,8.5061
94.6046,2.50728,1.09363,0.915927,458.951,0.545326,0,327.573,264.646,10.4087
95.3482,3.72455,1.46163,0.77067,421.424,0.891196,1,377.043,294.958,7.1304
93.0411,3.37308,0.871469,0.726963,498.645,0.629003,1,373.855,296.008,8.29504
95.6723,1.05037,0.596784,1.69238,371.737,0.431865,0,310.988,251.083,13.494
94.8147,1.30109,0.879372,1.67554,358.216,0.717339,0,311.393,264.753,13.5063
94.3729,4.87446,1.45361,0.400994,453.423,0.644268,0,356.51,288.741,5.90731
92.3754,3.67144,1.90874,0.0604117,483.069,0.805905,1,379.422,296.019,7.30637
94.5252,2.48567,1.32521,0.344185,371.891,0.992731,0,332.007,266.001,10.4488
93.0176,2.95125,1.33976,0.357326,469.135,0.837781,1,354.596,289.978,8.02168
92.0307,4.56492,0.738864,1.06052,438.525,0.667302,1,377.97,312.408,4.52381
94.0296,3.45792,1.14873,0.719058,424.007,0.646393,1,373.24,296.235,7.27068
95.8202,4.1603,1.34758,1.24448,371.512,1.05977,1,381.343,301.208,7.64436
95.0047,3.63893,1.06542,1.82142,475.551,1.11606,1,369.555,295.745,7.6632
92.4822,1.84629,0.6605,1.1823,397.839,1.18635,0,327.675,254.189,11.3931
94.6092,1.20058,0.560203,1.23995,405.244,0.790262,1,333.222,279.114,12.1487
94.3288,1.82252,0.786405,0.954161,424.737,1.1052,0,320.642,264.894,13.3615
93.3624,3.97495,0.727765,0.95857,443.408,1.15847,1,380.234,311.776,5.57847
95.8561,1.4045,0.722212,0.258363,413.439,0.503706,0,320.578,257.176,13.5234
94.4118,4.94389,1.29761,1.27423,487.201,0.877939,1,388.757,312.563,6.89352
93.2093,1.02435,0.852963,0.472993,488.905,0.661681,1,339.596,280.249,11.8295
95.9754,1.68887,1.37018,1.52444,435.675,1.16546,1,353.546,282.815,9.67988
95.4799,2.39779,0.968428,0.939034,391.239,0.798375,1,354.745,288.596,10.8906
93.1431,4.21759,1.51258,1.55509,409.59,1.13263,1,378.831,299.418,7.36915
92.4371,4.92993,1.43083,0.622653,437.046,1.18,0,349.393,292.439,7.30179
94.7701,1.21816,1.18468,0.779855,479.843,0.678397,1,344.919,278.851,11.1997
95.3366,3.32071,1.60466,1.09374,462.192,0.775411,0,343.678,279.958,10.3082
93.3953,2.9457,1.02608,0.377657,393.943,0.508318,0,334.508,270.938,10.3822
93.1812,4.11642,1.63181,0.211268,459.249,0.457351,0,356.167,282.211,7.8422
92.4917,4.20768,1.388,1.54392,456.855,0.832785,1,380.314,304.77,6.93866
95.1014,1.12583,0.559393,1.77777,449.672,0.522155,1,345.746,279.817,10.7366
95.3574,2.08002,1.25553,0.659406,434.305,0.836301,1,354.493,290.194,8.83648
95.8563,1.96129,1.25692,0.0865263,498.127,0.829091,1,355.006,284.957,8.64516
93.1922,2.61612,1.18233,0.918937,402.831,0.445635,1,358.728,292.226,9.80556
93.666,1.93432,0.618954,1.97936,446.112,1.07975,1,350.94,294.209,11.038
94.5793,1.28723,1.95515,0.202229,412.559,0.413094,1,353.379,275.03,9.9378
92.0773,4.68559,1.85217,1.50661,374.221,0.669889,0,357.472,281.269,7.25905
94.0852,2.95296,0.613599,1.37542,424.996,1.13627,1,360.721,296.549,9.32537
93.1992,1.45079,0.619849,0.821467,464.539,0.910422,0,310.35,259.07,12.4845
94.9898,1.8712,1.20104,0.473036,362.875,0.590916,1,354.893,285.63,10.5733
95.1253,1.99414,1.12889,1.38403,385.786,1.02607,0,327.471,264.659,13.6461
92.5892,1.60295,1.60846,0.403695,470.903,0.711341,1,359.61,279.051,11.6291
93.7313,2.67756,1.8543,1.49571,429.73,0.427339,1,369.475,288.392,9.4848
94.8469,2.1709,1.6762,0.0138252,401.709,0.478165,0,341.04,267.163,10.5427
95.9092,4.29979,1.31176,0.395967,421.969,0.932432,0,341.647,282.426,8.06338
95.7048,1.58739,0.739162,0.0851416,464.717,0.921709,0,324.392,273.007,11.7503
95.6781,3.62649,1.60344,1.09045,454.554,0.565014,0,342.834,281.918,11.7502
94.6265,1.90023,1.57084,0.460092,379.357,1.15952,1,354.827,283.523,8.39013
94.3204,4.11595,1.32036,0.77399,456.946,0.681773,1,371.263,304.838,6.23735
93.3263,4.02057,1.54004,0.323452,483.473,0.417477,1,381.809,305.597,8.27403
95.5035,1.4277,0.860561,0.952011,377.102,0.874632,1,345.454,284.245,11.7077
92.9217,3.21099,1.11071,1.01763,475.128,0.840951,1,366.478,297.741,8.11917
95.6078,2.43347,1.15167,0.916748,397.345,0.867195,0,332.837,272.572,11.6167
93.0613,2.1305,0.985728,1.21,456.157,0.603263,1,358.874,275.662,9.09943
94.7784,3.82678,1.21288,1.60866,451.201,0.627651,0,339.201,272.413,10.0085
93.5221,3.01308,1.30801,1.12739,369.853,0.971532,0,336.821,281.369,12.4113
95.8681,4.63253,1.6946,1.21487,353.535,0.516312,1,384.256,306.942,7.06085
94.6908,4.89727,1.28487,1.01803,355.602,1.10565,0,355.87,290.399,6.88353
93.3362,3.55496,0.87807,0.830179,493.597,0.590795,0,340.495,275.295,10.6989
92.796,2.21974,0.834946,0.271616,407.973,0.757916,0,322.556,262.22,12.5423
94.8182,3.57887,0.984985,1.10672,418.678,0.970592,0,345.213,281.569,9.99934
93.1892,4.18619,1.27734,1.07801,454.592,1.1405,0,355.594,286.303,8.22405
95.4644,3.50159,1.58848,0.89976,437.942,0.731581,1,374.493,307.251,7.02875
93.801,1.7703,1.5966,1.97168,444.433,0.823054,1,361.708,278.984,10.2975
93.7376,3.53981,1.48401,1.06542,458.992,1.00453,1,368.791,290.873,8.90896
93.0832,3.61933,1.65502,1.83845,372.848,0.677485,1,371.403,300.696,6.90705
94.4671,4.98021,1.32421,1.87423,449.271,0.474675,1,388.48,309.623,5.69536
94.521,2.05126,1.67165,0.373348,487.761,0.856013,0,329.487,262.432,10.8207
93.9644,1.20508,1.90515,0.47831,456.79,0.881987,1,360.715,278.058,12.1248
92.4417,1.37286,1.39632,0.471786,373.368,0.875548,1,349.24,272.439,11.4243
94.0225,4.3999,0.837498,1.97751,430.026,1.01119,0,351.35,291.707,8.16979
92.6415,3.70058,0.718783,0.180432,495.251,0.879318,0,350.414,281.273,10.7195
95.5634,1.9363,1.90305,1.45292,477.596,1.10322,1,361.65,294.056,9.13625
93.6631,1.93972,1.49253,1.59999,388.613,0.541481,1,344.613,286.633,10.8624
92.5714,2.06299,1.81928,1.7148,478.172,0.746681,0,332.578,261.546,10.7785
93.0131,1.67157,1.26664,0.804082,409.059,0.495855,0,325.844,262.238,12.2148
92.3028,4.82755,1.3708,1.74352,414.065,0.546904,1,382.35,310.593,5.30619
93.7339,3.0672,0.64024,0.320106,417.886,0.62801,0,335.916,266.222,7.87282
94.6467,1.4132,1.89333,0.777688,474.375,0.821906,0,327.667,268.159,13.7544
94.4819,1.73078,1.09442,1.37072,494.166,0.859117,1,355.783,285.085,11.1278
94.8656,2.74516,0.739894,1.63042,427.306,0.839545,1,362.36,295.734,8.87582
95.185,2.02964,1.59065,0.684693,486.362,0.966338,1,357.887,287.855,11.6434
95.1121,3.26866,1.31014,1.93568,366.741,0.402034,1,362.584,292.362,8.11269
93.2921,1.2553,1.6545,1.44367,473.4,0.551872,0,312.872,268.758,14.7441
95.2267,2.3795,0.846176,1.13286,464.743,0.93558,0,321.44,268.737,9.45249
95.0574,4.73389,1.12346,1.39031,441.112,0.710682,0,342.831,289.328,7.52582
93.5569,4.83971,1.51136,1.71967,475.282,0.875452,1,380.666,304.386,4.69251
93.8191,4.13804,0.584337,1.76879,412.585,1.1893,1,384.408,297.141,6.98013
94.8206,3.32449,0.597861,0.332979,447.541,1.18702,1,357.09,307.835,8.16628
92.6148,3.77869,0.546171,1.31768,432.375,0.684475,1,372.718,296.853,8.96552
92.8449,2.50354,0.823491,0.981086,355.137,1.02149,0,336.639,272.016,11.3592
93.3411,2.97981,0.566584,0.634141,421.51,0.522372,1,364.427,304.55,9.25518
92.5891,4.44545,1.21407,1.23709,467.618,0.654114,1,384.286,303.135,5.90815
92.842,2.87606,1.80453,1.25834,395.816,0.451164,1,359.932,284.51,8.77865
94.496,2.59855,1.48531,0.654395,475.687,0.751284,1,364.623,286.06,9.44163
93.2555,1.58093,0.899468,1.69775,488.735,0.729245,1,349.238,283.895,10.5441
93.3129,1.08556,0.631359,1.23526,405.64,0.604127,1,347.245,277.632,11.4141
92.5649,1.7468,1.31158,1.95659,470.446,0.993504,0,329.226,261.074,14.1717
92.3481,3.98689,1.87299,0.950387,363.031,1.14791,1,387.856,306.28,6.63826
95.0011,1.72595,1.30879,0.00432021,467.455,0.451088,1,353.043,284.531,9.83191
92.618,3.45142,1.50516,1.0958,418.614,0.799662,1,366.77,306.585,9.06279
94.0394,4.09122,1.10318,0.686733,433.162,0.872681,1,376.925,310.747,5.17791
93.1242,3.23406,1.14076,1.73046,494.425,0.411419,0,341.801,279.954,9.61994
95.3074,2.96191,1.05789,1.61191,492.792,0.400902,1,369.427,288.484,7.79709
95.5394,1.44008,1.94569,1.03548,383.102,0.942303,1,356.408,284.216,10.4114
93.3735,2.85815,1.46668,0.315683,421.709,0.409529,1,365.118,287.235,8.00369
93.8838,1.74385,1.69743,1.20714,398.506,0.679138,0,322.627,268.263,12.5821
95.5823,1.31513,1.76073,1.64187,482.682,0.553679,0,322.588,258.43,12.5101
93.1998,2.96045,1.53018,0.747832,496.916,0.40669,1,373.326,296.679,8.0537
93.5981,4.98208,1.52934,1.96417,446.478,0.966789,1,381.404,303.553,4.76959
94.6349,4.40856,1.73281,1.45722,402.17,0.739525,0,350.448,281.97,8.05345
94.768,4.22306,1.08547,1.64274,375.156,0.785908,0,352.499,289.129,8.11992
92.3388,1.96617,1.74105,0.383425,497.792,0.806825,1,359.439,281.783,10.1311
94.1263,1.51254,1.85021,0.520447,489.737,0.527134,1,360.824,279.252,12.2573
92.3072,4.47784,1.92134,0.235809,497.829,1.05061,0,359.389,286.715,7.69213
93.581,4.12977,1.057,0.430747,431.595,0.465005,0,349.081,290.126,7.92691
95.7372,4.67592,1.82583,1.29078,492.998,1.06661,1,389.453,307.74,5.62789
93.7252,2.01953,1.53664,0.0865298,383.528,1.0497,0,319.968,268.732,11.6444
93.5806,3.98627,0.765226,1.39464,439.224,0.736434,0,347.827,274.37,9.00105
95.7541,2.43234,0.629986,1.05658,423.901,1.0109,0,331.896,266.167,12.4957
92.0664,4.67053,1.63882,0.848762,479.867,0.471924,1,369.143,304.839,5.41196
94.2958,2.09354,1.43031,0.364108,374.509,0.686269,1,359.917,279.348,10.5499
95.617,1.78107,1.73041,1.89549,355.497,0.615306,0,319.389,265.417,10.7043
92.3341,1.30995,0.811067,0.668966,418.773,0.817065,1,338.859,283.075,10.6119
93.0727,4.66508,1.14657,1.60312,397.719,0.900824,1,373.091,307.53,6.18433
93.6452,4.27775,1.06698,1.68598,405.501,0.659658,0,346.652,281.599,9.03258
95.9537,4.07346,1.48236,0.759167,396.692,0.615229,1,380.62,306.663,7.83316
95.7377,3.61373,0.74081,1.12991,382.42,0.617841,1,364.24,295.474,8.19305
92.4114,4.52117,1.59017,1.86228,365.416,0.477037,1,371.215,306.188,5.55697
94.7694,1.74871,1.76995,1.88841,478.992,0.474944,0,329.649,266.889,12.3085
93.8613,3.87669,1.64301,0.390635,489.432,1.02882,0,352.813,283.105,9.02202
94.2557,4.31779,1.62332,1.09718,479.926,0.893248,1,379.847,306.807,6.69557
94.7054,3.91694,1.45185,0.834739,498.492,0.91612,0,346.447,286.833,9.14555
93.3709,2.3977,1.39042,0.33331,494.896,1.01867,0,329.947,264.323,11.699
92.0516,4.32996,0.998232,0.98167,490.489,1.02649,0,345.856,291.027,9.32003
92.7076,4.09669,1.28326,0.252122,401.953,0.452166,1,382.774,302.583,6.68157
94.5296,2.73352,1.99111,1.85752,350.302,0.769187,1,356.378,298.97,8.76525
95.3998,2.87291,1.68881,0.593075,398.263,0.731594,0,353.24,274.828,10.4964
95.2803,1.4764,1.35986,1.45337,464.253,0.823899,0,312.839,257.01,11.6273
94.807,1.40623,0.799771,1.48784,397.674,1.07466,1,340.435,273.955,12.0742
95.7389,1.39032,1.29184,0.147255,356.727,0.987686,1,345.322,276.939,11.5657
92.4606,2.72646,1.34485,0.49116,463.138,0.677728,1,356.1,292.774,7.50026
94.3269,1.81555,1.62488,0.033736,399.656,1.02931,0,330.068,258.026,12.0698
94.1611,4.07213,1.69629,1.65116,389.199,0.865654,0,351.182,279.95,9.1121
92.3207,3.61426,0.821971,0.733121,433.299,1.00355,1,374.903,291.71,7.00396
94.3226,1.59336,1.31945,1.28442,471.526,0.55414,1,347.997,280.018,11.7679
92.2183,4.84632,1.50196,1.2502,359.031,0.640335,0,363.833,285.764,5.59439
95.1376,1.51639,0.759097,0.968037,447.839,0.672402,1,351.296,279.723,12.1031
94.6661,2.85132,0.560361,0.834475,476.566,0.401436,0,331.408,276.378,11.2904
92.2482,4.74262,0.846539,1.33833,444.655,0.985554,1,378.432,313.552,5.30872
95.3687,3.10676,0.508532,1.44243,449.239,0.453305,1,371.678,300.629,8.92765
92.307,3.21832,1.63762,1.25318,383.314,1.04844,0,337.568,282.141,10.1909
93.5726,4.07752,0.86612,0.87044,366.716,0.877648,0,348.763,283.452,10.2603
95.4972,2.29024,0.886493,0.0602056,421.261,0.519508,0,328.057,269.371,11.0455
92.2385,2.48629,0.544376,1.35927,483.655,0.842179,0,337.776,271.002,12.2627
95.6282,4.55638,1.05605,1.72825,457.47,0.49055,0,358.761,288.885,9.78288
94.9691,2.6209,1.90818,0.421787,373.028,0.989847,1,366.485,297.568,9.65752
94.3972,3.99424,0.826725,0.593357,499.762,0.607061,1,377.24,292.372,7.82318
93.6295,1.68043,0.824231,1.92113,435.067,0.614193,1,342.491,284.021,10.4014
93.0752,3.09478,1.19315,1.83201,449.835,0.68444,0,336.876,271.08,10.3863
95.2475,2.41455,1.69307,1.97914,482.616,0.943022,0,334.666,270.462,11.6628
94.8806,3.88591,1.37954,1.49347,494.2,1.03168,0,345.843,286.375,9.42872
93.2504,2.34115,1.84925,1.86812,373.058,0.837598,1,370.103,288.054,12.1646
94.3002,3.93546,1.1142,0.261338,380.044,0.703086,0,343.404,274.113,10.1392
95.588,4.4117,1.18031,0.587552,449.789,1.13575,1,379.424,312.98,6.7709
95.4289,4.55686,0.592706,0.654553,446.799,0.929486,0,349.014,290.538,8.96394
95.8095,1.73814,1.24702,1.68306,465.199,0.797795,0,332.313,268.772,13.1297
92.2145,1.87375,0.882554,0.356437,478.131,1.19311,0,313.898,270.373,12.8917
94.8376,3.1539,1.15376,0.779319,373.335,1.04954,0,335.774,276.068,10.5175
93.0822,3.09883,1.01237,0.0320647,407.303,0.836233,1,363.388,298.872,7.58732
95.5197,2.21002,0.714496,0.386837,490.925,0.538361,0,323.291,265.022,13.0552
93.6759,2.63463,1.17315,1.47402,377.618,0.960031,1,359.853,289.323,9.00759
92.0009,4.41004,0.561766,1.38122,361.427,0.664174,0,355.685,286.927,9.01314
94.8749,4.5642,0.93176,0.727658,440.422,1.03305,1,393.561,306.612,6.11111
95.4641,4.08757,1.56158,1.31435,441.828,0.419602,0,348.959,276.639,9.69552
92.0279,4.43769,0.948379,0.0918303,369.549,0.842755,1,380.119,305.756,6.38279
93.5075,4.0994,1.15994,1.04958,470.589,0.909625,0,346.966,284.336,9.35406
92.4954,4.86183,1.2619,0.338578,495.282,0.401164,1,378.507,298.586,4.90266
95.7392,2.77314,1.78073,0.777494,450.317,0.667795,0,327.154,263.828,9.37228
95.1858,2.80803,0.536356,1.35222,413.257,0.797757,1,362.523,286.6,9.39274
93.5689,4.14645,1.0297,1.61218,498.525,0.821236,0,340.505,279.992,10.6185
94.5017,2.13824,0.65552,1.88777,411.694,0.825336,0,324.739,266.385,11.7689
94.5712,3.42811,1.05732,0.78149,423.925,0.851884,1,373.079,303.62,8.8338
93.2644,3.73773,1.57985,1.16773,439.563,0.556759,1,369.195,301.516,7.25956
92.6468,4.23571,1.65369,0.395641,374.09,0.885234,0,355.537,280.294,8.18281
95.8082,3.95465,1.97653,0.567016,361.056,0.602692,1,372.705,294.372,7.37337
93.4066,4.77401,1.73084,0.600548,448.519,0.978259,1,386.781,314.167,6.34593
93.5802,3.28541,0.584341,0.171721,493.163,1.17841,0,324.559,271.31,9.23783
92.8641,4.10447,1.51918,1.90584,385.197,0.98984,1,383.627,303.85,6.43959
95.9091,2.03639,1.36176,0.463775,465.089,0.796689,1,362.154,294.842,10.4346
95.5896,3.60353,0.991231,0.868807,379.013,0.816308,1,369.438,297.873,7.79332
92.662,1.27022,1.85734,1.1803,466.05,0.951921,1,347.055,275.643,10.2914
94.1104,4.52476,1.12795,1.94674,468.676,0.733054,0,361.03,284.628,8.524
95.0488,3.13864,1.9396,1.64153,473.784,0.607328,1,373.775,295.885,8.81876
94.6332,3.97545,0.629614,0.755092,383.379,0.478358,1,371.613,298.693,8.58833
94.2113,4.73238,0.857158,1.2707,440.84,1.17369,1,388.249,312.895,6.3494
94.0196,1.40057,1.63366,1.30161,458.05,0.827864,1,345.922,279.797,12.7742
93.7963,2.86349,0.749286,1.73387,434.486,0.573752,0,330.375,261.078,12.3667
94.5231,4.30875,1.62959,0.260337,494.632,0.632855,1,368.784,307.421,5.08509
94.2369,2.06664,1.21864,1.71234,415.33,0.62562,1,366.508,287.713,8.32241
95.5194,4.99784,0.784898,0.406681,378.458,0.625119,0,355.982,285.947,6.267
94.4665,2.76607,1.12114,1.65655,360.743,0.950238,1,356.033,290.14,7.63468
95.2666,3.85727,1.82383,1.18028,485.009,1.03969,0,357.79,281.101,8.97528
93.3287,4.91661,1.86481,1.29513,443.776,1.16853,0,363.061,290.084,8.00897
93.5088,2.60486,0.51657,0.240285,477.92,1.08669,1,358.662,293.986,9.02977
93.1997,4.46337,1.91857,1.68284,378.328,0.449115,0,353.78,287.179,6.42103
92.0294,2.83125,1.25112,0.874701,485.608,0.806477,0,332.219,271.46,9.8794
93.5442,1.13275,1.66674,1.76698,463.068,0.763513,0,329.023,250.807,12.5831
94.0505,2.19183,0.549759,0.178812,492.453,0.626181,1,357.067,286.821,10.4441
95.9525,4.74459,1.32885,0.214788,465.468,0.468594,1,382.234,309.442,5.96697
92.5377,4.14241,0.886163,1.04386,484.812,1.08822,1,370.188,305.938,7.16899
93.3433,4.97356,1.73059,0.359685,416.937,1.11388,0,365.983,285.693,5.20449
94.3142,3.21357,1.55842,0.111318,437.465,1.0366,1,367.954,295.558,8.2492
95.2427,3.82363,1.13339,0.0862011,417.362,0.437667,0,346.928,280.289,9.96324
93.6226,4.06076,0.603385,0.267599,374.177,0.777625,1,370.198,303.078,7.11453
93.5381,1.7472,1.36929,1.3004,352.351,0.618563,1,347.279,275.227,10.6445
94.0444,3.62223,1.13135,0.851794,387.002,1.03331,1,372.887,297.939,7.63348
92.976,3.49132,1.27011,0.0848702,353.079,0.420124,0,341.46,271.779,9.92086
93.5452,4.01179,0.814784,1.53502,393.025,0.595482,1,374.384,296.262,8.28508
94.4293,3.4602,1.10347,1.98537,390.668,0.754572,1,364.591,294.463,7.76604
92.7964,2.36305,0.849495,1.95677,497.677,0.435631,1,353.602,289.835,9.17316
95.2006,1.67823,1.61173,0.694489,397.73,0.822689,1,357.045,280.885,10.4537
93.6367,1.32983,1.70654,0.517233,488.843,0.488874,1,355.523,279.934,9.72732
92.6254,2.99435,1.17839,1.77622,491.171,0.468435,0,321.164,277.428,12.5156
92.7271,4.37733,0.963583,1.39898,373.209,0.726299,0,346.193,277.64,8.07279
95.3373,1.02596,1.28774,0.814721,472.037,1.02106,0,314.096,260.622,14.0794
92.4173,4.60923,1.52456,0.69117,369.608,0.90401,0,349.048,290.526,8.62089
93.0402,2.96455,0.878085,0.801253,364.797,0.866469,1,359.927,291.858,9.53106
92.0986,1.93302,1.25372,1.87607,372.553,0.701856,1,352.272,291.521,9.2416
92.1598,4.76904,0.651223,1.25965,415.374,0.800615,0,356.234,295.067,9.30237
93.9115,2.16432,1.17416,1.19832,459.675,1.05729,1,351.765,288.153,10.5606
92.3079,3.25431,0.886714,0.568573,357.734,0.635943,0,340.242,282.56,8.97137
95.3749,2.29576,0.719843,1.84488,405.935,0.796206,0,329.395,269.516,13.4688
94.2911,2.84204,0.627145,1.41016,452.602,0.817864,1,375.507,293.667,7.31835
92.5194,2.00763,1.81289,1.80826,453.425,0.696672,0,328.541,270.22,11.1089
95.4034,3.46543,1.30354,0.892212,423.466,1.11952,1,368.952,290.693,7.21942
95.0359,4.15591,1.13581,0.708856,483.386,0.822958,1,378.04,307.391,7.46454
93.1793,2.19474,1.58886,0.278151,381.345,0.446961,1,353.535,285.487,7.89276
93.2063,4.52912,1.84174,0.439506,494.453,0.735518,1,378.918,307.288,7.10227
95.2859,4.03636,1.24363,0.681438,426.588,0.674394,0,344.384,281.503,9.40037
94.7671,4.11682,1.33912,1.74123,423.247,0.930606,1,380.536,305.398,5.3708
95.0485,1.42804,1.7248,0.815004,483.262,1.00615,0,321.107,258.723,12.1662
93.5013,3.59064,0.55237,0.517298,477.303,1.19424,1,358.765,306.538,8.39299
93.0607,4.19445,1.79856,0.978065,384.115,1.05118,0,353.146,280.145,10.445
92.3536,1.44789,1.12556,0.134496,447.5,0.853661,1,345.501,282.686,9.94067
95.3718,1.2741,0.902917,0.942351,489.853,0.899947,0,312.577,259.112,13.2262
94.3817,3.26213,0.600484,0.661774,448.218,0.708826,1,365.089,297.436,10.6396
92.65,1.70745,0.873917,0.682291,464.65,1.17134,1,334.804,290.746,10.7066
93.7708,1.30747,0.728542,0.448713,483.563,1.07246,0,310.215,264.147,14.1865
92.817,1.13314,1.41405,0.510056,353.937,0.881681,1,344.775,284.917,12.1768
92.9833,2.59072,1.85066,0.19631,439.936,1.0958,0,335.593,268.42,10.4878
93.6253,4.73206,1.45174,0.504038,421.665,1.1526,0,355.518,280.623,7.16876
94.8702,4.51729,0.643774,1.85735,432.959,0.877987,0,345.52,289.347,6.88347
93.6445,2.7442,1.10852,1.35053,367.378,0.521135,0,337.155,265.415,12.5294
94.4902,4.24121,0.89202,0.0120153,370.01,0.716227,0,346.423,284.875,8.39285
95.1652,4.5355,1.1294,0.0306786,488.731,0.661916,1,381.44,306.457,7.93949
92.0561,2.32557,1.6206,0.970017,450.366,0.682774,1,369.405,284.256,10.1929
94.593,1.01761,0.590855,1.83318,411.135,0.776721,0,314.855,262.656,11.5581
95.0139,3.17912,0.844299,0.564622,405.552,0.761007,1,364.498,293.424,10.0918
94.4926,2.83929,1.41816,1.98709,442.569,1.15409,1,382.841,297.709,8.65069
95.0355,3.55736,1.44882,1.0445,371.735,1.02878,0,353.541,284.209,9.6401
93.6141,2.45047,1.1908,1.264,439.267,0.93115,0,342.046,276.298,9.98016
92.1406,1.70427,1.06935,0.765493,417.029,0.416353,1,350.065,277.388,9.80482
93.6757,2.12535,0.952281,1.37989,415.79,1.16406,0,320.912,263.768,11.7233
92.7141,2.31325,0.699845,1.00506,411.682,0.486733,0,331.737,265.355,12.7179
92.2081,4.32047,1.47182,0.64331,465.821,0.50302,1,377.029,300.853,5.06697
92.4093,2.90762,1.25168,1.09728,410.342,0.474736,0,339.155,279.492,7.45552
94.3191,4.90333,1.96052,1.59686,431.423,0.440003,0,350.656,285.04,6.28115
93.9558,4.33695,0.897708,1.13618,414.403,0.515462,0,349.04,288.036,7.91248
94.374,4.4246,1.44956,1.46668,471.337,1.1167,0,353.996,288.241,7.09922
92.6234,3.14943,1.7818,0.054137,457.418,0.771251,1,360.382,295.78,6.6679
93.9861,4.87102,1.68114,0.768614,497.48,0.406908,0,352.715,287.366,5.83835
94.5128,4.78143,0.644932,1.76961,366.937,0.549912,0,349.461,292.114,7.34234
95.6792,3.00408,0.920261,0.703544,389.472,1.11464,1,369.919,300.643,8.28679
94.1995,4.98497,1.03285,1.85539,407.099,1.04697,1,388.093,311.208,4.77234
93.4,2.52611,0.603507,1.50503,489.735,0.941096,0,324.682,266.566,12.1552
94.2753,3.5871,1.84257,1.17965,373.787,1.1861,0,347.581,274.861,11.3573
95.1317,2.66193,1.15769,0.496334,369.529,0.507571,1,367.781,284.079,10.212
95.7337,3.00918,1.99636,0.639691,378.344,1.018,0,342.665,272.539,9.59802
92.1503,1.74774,1.28043,0.967311,407.889,0.756079,0,328.217,258.848,12.6007
92.2923,3.08916,0.770663,0.42761,453.572,0.529732,1,365.461,292.337,8.44396
92.2596,2.44489,1.14623,1.32939,441.817,0.871463,0,332.77,259.555,10.4672
92.1577,1.80776,1.13729,1.72219,491.135,1.07326,1,357.563,279.922,10.1869
92.3526,2.0055,1.97837,1.01248,394.231,1.04848,0,334.513,270.884,11.6984
95.5544,4.58374,1.83198,1.81238,396.025,0.750255,1,384.451,301.684,7.26623
95.9535,3.6798,0.90918,1.96064,351.179,0.529918,1,373.603,302.639,6.68731
94.2486,3.64462,1.41177,1.49888,416.135,0.915944,0,352.589,279.319,9.39834
95.3644,4.3868,1.15089,1.28246,392.319,0.914986,0,343.956,289.955,9.5359
92.2214,1.27381,0.833664,0.526954,453.038,1.04891,0,313.276,261.469,12.7688
94.37,2.48969,1.95666,1.86105,416.377,1.15739,0,328.408,269.225,10.079
92.5225,2.73064,1.52864,0.45677,480.325,0.523294,0,347.353,268.105,11.0044
92.2093,4.51907,0.540843,0.425498,392.194,0.890458,1,373.78,308.677,7.167
95.9942,3.52773,1.37705,1.23489,452.254,0.869901,0,330.98,274.657,9.52741
92.754,1.10514,1.62024,0.317722,363.859,0.908265,1,344.681,280.317,13.0404
94.8521,2.34444,1.05802,1.93918,364.856,1.09601,0,319.085,270.405,10.2976
94.2484,2.29847,0.546723,0.933099,456.47,1.06178,1,356.487,288.977,8.41066
93.6412,4.39467,0.944439,0.11753,382.417,1.13263,0,347.315,287.326,8.35187
94.1339,2.612,1.90548,1.95889,480.946,0.936926,0,349.946,274.8,12.3857
94.914,2.34342,1.25103,1.09077,418.502,0.624611,1,364.171,296.88,10.3298
93.6481,1.58216,0.936874,0.176826,418.914,0.769698,0,320.028,270.877,13.2375
93.6424,4.90635,0.898971,0.0703903,357.252,0.410692,1,383.195,310.895,5.52146
94.2891,4.01816,1.98313,0.466512,375.818,0.576259,0,349.484,285.521,9.1841
95.435,2.69304,0.553563,0.546583,386.186,0.686461,1,356.79,287.437,8.51277
95.1605,3.87015,1.36756,0.366244,382.394,1.17505,0,339.92,287.313,9.58058
95.2719,1.30501,1.12763,0.180745,465.732,0.847707,0,320.26,254.565,12.3929
95.0891,2.25667,1.87643,1.38691,401.642,0.975405,0,336.115,276.452,11.0895
94.2527,4.66793,1.47057,0.532717,401.039,1.01163,1,381.748,303.85,6.81278
93.1496,4.23248,1.14502,0.269339,482.937,0.956893,1,380.695,296.874,4.89798
95.623,1.86181,0.637606,0.135689,365.485,0.600559,0,323.557,268.381,10.656
93.4201,2.55375,1.39799,0.269811,420.918,0.871235,0,329.634,265.071,8.92493
93.1423,1.58863,0.878407,1.76249,376.884,0.521792,0,308.693,258.567,13.0357
95.096,3.72713,1.37211,1.37498,451.955,0.609828,0,352.075,279.071,10.4053
95.2444,1.31659,0.597908,1.32011,447.336,1.0587,1,346.894,284.885,10.4679
95.659,4.62507,0.845808,1.81777,421.485,1.14385,0,351.104,292.238,7.30022
93.308,4.97565,1.03543,1.03037,361.923,1.0391,1,387.488,314.168,6.20701
94.0123,3.68128,1.0845,1.83255,394.318,0.863207,0,342.975,275.32,7.83845
95.7269,2.70922,1.49808,1.78377,444.728,0.409624,1,366.769,284.093,9.35383
92.9189,2.14217,1.62099,1.77851,381.578,0.764666,0,330.283,264.112,12.1494
92.691,2.95284,1.67838,0.601757,472.503,0.595124,1,370.84,294.279,7.65632
93.2823,3.48704,1.78222,0.60291,426.181,0.448445,0,340.567,281.393,9.34251
95.0532,1.48077,0.733267,0.640089,424.861,0.462918,1,347.182,284.379,10.7019
94.1254,3.43152,1.9556,1.13231,373.158,1.06728,1,369.008,291.444,8.33379
93.7442,3.59676,1.55961,1.97003,402.261,0.555645,0,342.193,276.4,8.2522
95.7876,1.28176,1.49168,1.44246,434.566,1.11821,0,320.984,268.355,12.7737
93.5072,4.4631,0.698443,0.017272,474.295,0.597076,1,378.151,307.619,4.78
94.2028,2.14183,1.13106,1.59374,355.071,1.09979,1,359.604,282.345,10.0092
95.3445,4.33089,1.23335,1.35207,419.241,0.754147,0,350.041,286.37,8.25388
95.513,3.29101,1.4033,0.105018,467.337,0.651648,0,343.606,269.084,10.2493
94.4038,3.24726,1.03044,1.72577,421.849,0.858178,1,356.347,297.83,8.84456
93.3424,2.83086,1.95106,0.657156,472.07,0.689892,0,341.753,274.741,11.2623
94.3699,4.73463,1.27484,1.3182,368.878,0.636923,1,377.576,309.78,7.13637
94.8813,3.98382,1.90743,1.72231,354.232,0.5406,0,348.783,279.073,9.01418
93.928,3.29545,1.21741,0.717668,466.557,1.1826,1,372.203,294.866,8.33231
95.7831,3.79931,1.33354,0.291004,360.974,0.990065,1,383.575,300.804,8.3769
95.291,2.33606,1.69822,1.27211,352.715,0.919429,0,330.389,262.912,11.9227
93.9321,2.70974,1.19426,0.346199,443.685,0.657058,1,362.313,290.915,10.2185
95.6889,1.8517,1.31002,0.632136,464.263,0.595621,0,324.027,261.957,12.4736
93.4761,3.26641,1.11052,0.327159,378.268,0.513205,1,366.807,307.259,7.92183
94.4466,2.52736,1.75496,1.36753,452.677,0.5022,0,345.751,273.359,14.0008
92.0372,3.33154,0.591956,1.32565,382.802,0.75856,0,328.917,280.097,11.0881
92.1882,3.42436,1.40732,0.609264,480.486,0.672844,1,379.918,300.865,5.96937
93.0252,4.04155,1.10856,0.919821,485.495,1.09458,0,340.016,276.829,8.58428
95.5,2.6347,0.593031,0.695983,487.192,0.493487,0,331.136,266.39,11.2896
94.8895,2.78712,1.33084,0.754254,400.888,0.671709,0,339.708,282.24,9.17116
95.6549,1.23869,1.90713,0.294179,366.957,0.737671,1,348.709,278.582,11.5485
92.984,2.5405,1.23255,1.54029,409.484,0.568027,0,331.074,263.259,10.0344
92.9362,4.95835,0.715977,0.735209,368.549,0.728054,0,350.224,283.588,7.74037
93.3173,4.12417,0.92033,0.727406,370.786,1.12967,1,378.761,309.067,6.65141
93.4928,4.86669,1.59135,0.00272384,364.527,0.960173,1,388.166,300.955,4.2277
93.7239,3.88502,1.74746,0.0101781,464.004,0.534358,0,349.126,281.444,9.20144
92.2464,4.92723,1.08066,1.01404,406.986,0.785114,1,380.811,307.498,5.8462
93.6967,1.9753,1.35889,0.930129,395.14,0.904329,0,321.52,271.195,11.6734
93.4708,1.09025,0.634172,1.84114,462.08,0.801679,1,350.893,274.635,9.08013
94.5571,3.13896,1.5639,0.265135,408.831,1.18603,0,339.162,274.699,9.19402
95.9956,3.1101,1.68323,1.68898,484.348,1.1386,1,369.462,299.093,6.7457
95.2716,4.11431,1.7642,1.86263,440.278,0.959289,1,377.823,298.245,6.15925
94.7146,2.20618,1.31909,0.96089,380.36,0.699178,1,365.781,289.732,8.82943
94.1715,1.9622,1.95798,1.00586,357.499,0.565074,0,327.596,267.933,11.8993
95.2823,4.76489,1.16761,0.598239,483.037,0.572499,1,384.789,304.368,5.68435
92.3386,3.57265,0.819015,0.226051,488.636,0.904642,0,338.753,276.295,10.8381
92.1867,3.85577,0.956445,1.96274,485.5,0.476775,1,379.224,301.081,7.70388
94.9421,3.56381,0.554556,0.356995,446.079,1.01166,0,338.725,272.535,9.29114
92.6744,4.1504,0.829628,1.55331,357.076,0.994266,0,339.01,286.075,8.18624
92.7681,2.08489,1.99192,1.05548,485.584,0.583845,1,368.094,287.843,10.8133
94.681,2.56641,0.64027,1.663,402.336,0.951361,1,355.447,287.237,10.7891
95.4441,1.13166,1.47833,1.16977,455.504,0.752562,0,308.941,253.68,13.8008
92.1754,2.83112,1.60073,1.75071,394.712,0.474426,0,334,279.409,10.1407
92.2889,2.20959,1.27062,0.545531,378.968,0.799169,1,349.682,294.745,9.92288
93.1097,1.50848,1.46412,1.18641,391.613,1.061,1,348.155,279.619,9.78722
95.7502,3.02801,0.809682,1.8587,399.435,0.652635,0,332.273,278.811,11.2871
94.7125,3.40239,0.686463,0.443247,375.207,0.563142,0,335.306,277.09,10.7285
92.1337,1.56209,1.46988,1.69274,492.384,0.694167,0,318.229,260.849,13.2154
92.5589,4.72335,0.602429,1.78309,499.488,1.01853,1,376.958,302.093,5.39862
94.415,2.64361,1.86078,1.11845,426.416,0.49477,1,373.569,293.216,8.53807
94.9935,2.32115,0.516706,0.367826,405.021,1.08117,1,360.102,285.238,6.95844
94.0156,3.83349,1.43488,0.0107047,476.566,0.774818,1,374.736,310.171,6.974
93.9569,2.13917,1.59742,0.090071,419.134,1.12767,0,327.828,269.706,11.4618
92.1513,4.88591,0.631065,0.263338,444.423,0.581541,0,353.174,291.113,8.78718
94.0638,1.49235,1.59564,0.412416,369.74,0.752368,0,319.102,261.441,12.6721
92.8019,1.93599,0.639294,1.56996,497.284,1.09464,1,357.651,282.586,8.6743
94.4582,2.01048,1.53622,0.14974,397.955,1.17907,1,358.851,295.106,9.85677
92.2213,4.77031,0.748335,0.732673,408.532,0.4176,0,342.275,288.36,6.14652
94.1744,3.3143,1.15818,0.17378,414.212,0.920126,1,360.634,288.495,8.08639
92.602,2.41688,1.56252,0.469234,400.243,0.592433,1,366.214,288.029,8.81076
95.9684,4.72463,0.788152,0.805263,402.933,0.844296,0,340.563,288.035,8.09487
94.5913,1.21983,0.800683,0.227752,377.255,0.525554,0,313.333,260.014,11.2988
92.4876,4.14784,1.71619,0.889896,374.784,0.969499,0,342.927,287.965,9.4672
95.8008,4.04385,1.00892,0.452242,459.069,1.05228,1,377.692,305.428,6.14135
92.1239,4.18709,0.774839,1.23204,439.107,1.04994,1,369.26,300.49,5.09395
92.8014,2.84768,1.44145,0.812323,397.953,0.887063,0,330.282,277.204,12.3881
93.0926,3.48742,0.823982,0.208506,436.424,0.974462,1,367.744,294.021,8.15962
95.3576,3.65478,1.04839,0.866501,448.137,0.657669,0,340.877,280.808,10.5243
93.6243,4.54774,1.70336,0.919187,430.731,0.461185,0,346.248,281.378,9.54148
95.9189,3.18846,0.53472,1.79818,382.18,0.64915,0,339.701,277.39,10.9643
93.5905,3.66959,0.996612,0.561968,373.047,1.1249,1,363.079,305.821,7.40713
93.7424,4.32317,0.888891,1.01785,425.443,1.05075,0,333.849,287.582,9.55092
94.6429,2.80239,1.67791,0.568244,367.176,0.755842,1,366.672,299.433,10.0392
95.2649,1.30578,0.71084,1.28662,430.592,0.971081,0,317.282,258.752,15.2405
93.1219,1.3815,1.09572,0.669671,403.228,0.587264,0,320.838,254.128,14.3988
95.1135,2.98037,1.00434,1.12001,390.566,1.02488,1,365.075,289.842,7.48941
92.0888,2.49447,0.693906,1.98194,405.363,0.864371,0,329.719,269.649,13.9885
95.8511,3.68343,1.24914,1.85439,493.866,0.454666,1,372.829,295.369,8.10874
93.1526,4.66111,1.50455,1.17659,488.23,0.488245,1,382.034,295.909,6.49374
95.4936,2.472,0.6443,1.84141,478.832,1.09943,0,324.223,270.282,11.8722
93.0203,2.28238,1.72483,0.0212385,421.902,0.886717,1,359.129,289.655,9.58786
95.4851,2.47228,1.39688,0.707408,488.586,0.780173,0,326.097,265.766,10.2491
94.1921,3.86699,0.640961,0.0946057,477.506,0.913385,0,340.153,274.041,9.62982
95.6858,1.68875,0.75167,0.829872,450.28,0.640868,1,348.002,279.566,11.6344
92.0558,4.15133,1.02433,0.610561,449.046,0.936729,0,345.572,285.174,9.32278
93.3422,4.81034,1.16984,0.265932,391.123,0.520601,1,380.689,309.764,4.00747
95.3658,3.63792,0.861388,1.42926,426.349,0.566926,1,361.544,298.657,8.63873
93.907,2.45353,0.527036,0.44943,494.977,0.721982,1,350.89,283.298,8.59896
95.3012,2.22848,1.43571,0.432297,396.922,0.665657,0,327.003,255.391,12.49
95.2863,3.45194,0.532042,0.140111,473.002,0.625736,1,369.248,292.776,6.59249
93.269,3.51103,0.806299,0.145352,423.661,1.12995,0,332.686,277.781,9.84788
92.6253,3.59102,0.931339,0.356643,350.604,1.07153,1,371.604,298.584,7.90998
93.9661,4.04815,0.819394,0.403027,390.616,0.722552,1,374.725,301.516,8.09592
93.9961,4.19179,1.15746,0.0585309,411.435,1.1549,1,377.566,311.638,6.17128
92.1918,4.63821,1.18406,1.24272,393.517,1.03746,0,356.128,280.74,9.18435
92.7963,4.76299,0.747012,0.287253,389.029,0.511737,1,374.262,310.524,7.29017
94.7564,1.57263,1.07553,1.98402,416.307,0.422751,1,347.465,275.128,9.97948
95.8487,1.51262,1.12691,0.794002,490.48,0.776607,0,320.349,260.747,14.1071
94.8196,3.30474,0.763884,1.68246,456.606,0.59004,0,345.18,283.735,10.4234
95.2412,4.52908,1.87842,0.544148,394.032,1.06956,1,383.616,308.152,4.35714
94.9333,4.07943,0.679963,1.21438,429.691,0.91261,0,342.482,286.074,11.1289
93.8093,1.28386,1.50394,1.71423,479.853,0.532746,1,342.179,290.276,9.59191
93.2956,3.04464,1.26331,1.86659,366.151,1.10209,1,368.716,293.661,7.81672
95.6583,4.52785,1.73485,0.256113,357.104,0.8546,0,352.462,282.25,10.0012
94.1681,4.52485,1.97269,1.15875,374.417,0.880498,0,352.878,282.669,8.65796
93.0799,2.28037,0.560908,0.871896,362.409,0.960493,1,361.572,290.361,7.6722
94.1714,4.70181,0.761958,1.50591,462.647,0.450908,1,381.065,305.05,4.50119
93.6725,4.69171,1.31437,0.34619,433.069,0.824368,1,375.917,307.95,5.90244
94.418,3.93074,0.650993,1.55135,366.341,0.708909,1,369.354,302.23,7.41646
95.3086,4.4024,1.43716,0.474139,398.222,0.890711,1,380.858,295.27,7.4739
93.7956,3.49489,1.67852,1.43693,396.595,0.880669,1,379.419,297.897,7.59112
95.7887,2.39355,0.624861,1.20343,484.675,0.52828,1,356.987,290.305,9.83411
94.3419,1.43377,0.731433,0.408431,476.623,0.52556,0,317.12,255.583,12.7548
95.7116,2.43905,0.899512,0.936329,462.163,0.706446,0,338.246,268.749,12.0634
95.3809,3.85313,0.683033,1.60528,487.886,0.668968,1,375.818,304.955,6.60908
92.7044,4.39013,1.67006,0.310678,439.336,0.536102,1,386.372,313.785,7.59295
94.019,4.59939,0.63051,0.758056,362.079,1.15481,1,382.598,302.618,5.89176
92.0784,1.07041,1.69413,1.47515,382.468,1.01005,1,346.809,275.913,10.0668
92.5055,3.98313,1.75651,0.837953,477.866,1.18591,0,354.946,267.917,7.50332
95.5832,3.3793,1.03538,0.628903,450.799,0.644594,0,337.705,277.889,11.0787
95.3654,4.27295,1.09323,1.04238,407.221,1.05042,1,374.151,300.485,5.50279
92.3355,4.81562,1.07365,1.42835,461.763,1.12288,0,361.18,286.327,8.54213
92.1675,4.62455,0.56724,1.67669,455.523,0.788863,1,384.414,304.214,6.34136
95.6805,4.90193,1.35994,0.75479,413.791,0.648747,0,352.833,285.963,7.19474
94.7809,1.746,1.66068,1.70851,385.465,1.03673,0,322.254,261.71,13.3219
94.3405,1.02027,1.09753,0.214785,391.914,0.876831,0,310.809,256.588,13.9591
92.5602,3.66904,1.32342,0.916031,440.043,0.781987,0,340.967,287.186,9.04914
94.9292,2.86035,1.08822,1.38622,411.269,0.823536,1,368.223,281.602,8.63139
94.3773,2.41495,1.65718,1.59257,369.308,0.904019,0,333.529,268.558,11.3894
93.8494,3.71662,0.663068,1.56115,466.58,1.05399,1,366.297,300.55,7.84875
93.2907,4.60668,0.580702,1.36591,411.335,1.15358,1,382.089,306.795,6.33377
92.4658,3.00599,0.723101,0.728651,464.964,0.484203,1,364.136,288.25,7.19105
94.786,3.60844,1.7234,1.95105,482.724,0.958201,0,339.065,279.639,9.78728
95.6543,2.54623,0.801548,0.266404,480.211,0.753023,1,363.386,280.022,8.60718
92.297,2.15263,0.785891,0.8929,381.33,0.989044,0,324.995,269.083,12.384
93.3929,4.72613,1.59006,0.433223,488.579,0.876842,1,376.362,307.764,6.54561
92.1201,1.54804,0.810207,1.33269,386.954,0.892111,1,348.883,283.338,10.4733
95.69,3.52021,1.185,0.275691,455.805,1.00336,1,380.198,297.136,8.29329
94.9631,3.57791,1.03394,0.086655,380.382,1.15628,1,368.233,301.388,8.91669
93.7319,1.14691,1.77067,1.68922,362.807,1.10952,1,351.287,275.399,11.4275
93.1652,2.148,1.26505,1.57928,430.101,0.762025,0,327.538,273.869,12.465
95.5565,1.61131,1.76439,0.624837,462.336,1.19956,1,348.69,289.977,8.12948
94.2089,3.47167,1.49163,0.410063,495.43,0.86162,1,373.81,305.107,5.74038
94.1739,3.09114,1.8168,0.0487362,460.927,0.644453,1,364.571,297.891,7.99402
95.2818,4.13638,1.05044,1.19023,421.399,0.752532,0,349.26,286.066,7.9445
93.7173,4.31584,0.589699,0.865231,388.481,1.10954,1,372.792,308.762,6.29002
92.3731,4.9175,0.720499,0.587559,389.294,0.79668,1,383.323,295.118,7.87712
95.6357,1.14168,1.14884,1.38261,394.048,0.839544,1,352.058,282.671,11.4833
95.7095,1.65825,1.02684,0.439887,468.9,0.827012,0,324.377,261.074,11.1745
93.3389,3.73371,1.25124,0.155824,423.412,0.960814,1,375.545,311.118,6.36383
93.3089,2.42826,1.94731,0.0675359,458.424,0.713598,0,335.654,277.064,11.0292
93.2391,2.97801,1.24242,1.11644,444.235,0.541842,0,338.349,274.202,11.3293
94.9292,4.08016,1.41526,0.101127,454.471,0.733803,1,376.481,307.032,6.47033
93.0605,4.04968,1.06785,0.898946,406.125,0.862629,1,377.373,295.349,5.52805
92.3997,4.89174,0.542369,1.3053,454.245,1.04431,0,346.928,290.788,6.8859
94.7827,1.35237,1.49221,1.42341,451.407,1.03302,1,354.624,281.073,9.982
95.9937,3.60065,0.674682,1.63824,420.489,0.722804,1,370.253,304.044,7.33704
94.0803,1.23261,0.924794,0.687093,422.353,0.632157,0,319.532,258.008,14.6037
92.9868,3.13915,0.939413,1.30457,495.657,0.857291,1,377.095,301.178,9.26277
95.7964,4.58059,0.857939,0.459844,487.179,0.618125,0,345.6,292.205,8.63398
93.6287,2.08607,1.27265,0.0406558,354.151,1.03528,1,358.682,292.94,9.81179
95.6974,4.69858,1.48925,0.248443,424.446,0.498342,1,376.761,306.685,6.45202
93.1854,4.09924,1.89694,0.00779809,393.803,1.00901,0,359.692,283.453,7.1268
93.7942,2.53606,1.1376,0.167197,446.965,0.761071,0,339.813,274.469,11.6462
95.8186,2.12827,1.00749,1.96871,396.255,0.565876,1,355.635,294.963,10.5205
92.449,2.35777,0.869809,1.55479,476.298,0.457769,1,359.358,276.995,10.6643
93.8571,1.96922,1.12801,0.49289,468.578,0.646059,0,326.694,266.539,10.66
94.1781,3.19517,1.69017,0.057057,429.709,0.513856,0,335.691,282.894,9.25654
93.8427,3.96495,1.20024,0.0495767,455.396,1.15107,0,344.305,284.82,9.22772
92.7469,4.70453,0.984938,0.177921,393.396,1.15819,1,378.112,318.156,5.29778
95.3069,2.98216,1.73326,1.05615,377.328,0.496607,0,345.711,278.021,10.5994
93.6086,2.92756,1.07734,1.49101,458.67,1.07353,1,354.174,287.157,8.23696
95.2168,3.94147,1.81202,1.73974,476.511,1.13839,0,347.516,287.952,10.5806
92.0767,1.81793,0.890632,0.754843,398.676,0.611596,0,317.573,265.081,10.3767
95.441,1.69102,0.995556,1.47557,483.63,0.427861,1,357.523,283.665,10.6027
92.633,2.66241,1.84451,0.484226,377.204,0.712599,0,336.409,263.925,11.2484
94.6891,4.80619,0.969753,1.35974,353.91,0.653127,1,381.452,307.086,7.1676
94.241,4.8917,0.668042,1.90661,486.347,0.935594,0,356.841,288.68,7.11261
94.3199,2.713,1.01492,1.26444,366.474,1.16779,0,327.148,271.982,10.9978
95.8689,1.25465,1.87102,0.688492,488.637,0.567567,1,356.825,273.414,10.9213
92.6904,2.70737,1.85182,0.704759,465.084,0.460354,0,338.547,268.375,12.5624
95.0804,3.15719,0.752848,0.00129774,449.093,0.661159,1,375.766,289.497,6.53002
94.4185,2.99876,1.47002,0.284664,350.241,0.521801,0,345.785,266.909,10.1293
93.3807,4.8542,1.89343,1.19029,391.208,1.11144,0,362.46,287.263,6.3991
92.8582,2.48616,1.49739,0.570797,406.072,0.611364,0,337.689,276.1,11.4939
93.461,1.37192,1.42296,0.374546,411.896,1.14174,1,346.661,279.705,12.1584
94.2926,4.23331,1.69615,0.399828,411.163,1.05934,1,377.876,306.229,6.48176
92.4524,1.78412,1.12154,1.91519,488.264,0.42428,0,320.185,263.348,12.3683
95.1666,3.68974,1.01987,1.81382,448.022,0.690629,0,345.068,281.962,9.29997
95.4359,4.9629,1.5215,0.960072,444.232,1.03514,0,362.005,288.205,7.71701
93.9255,4.18415,0.601452,1.66338,490.351,0.4517,1,375.016,304.243,7.01278
93.1442,3.81994,1.5584,0.443104,391.085,0.656042,1,369.861,296.776,6.39523
94.6936,3.1189,0.944769,0.691946,358.432,0.648923,0,331.07,272.91,10.0944
92.0924,1.86858,1.36761,1.94388,482.846,0.947321,1,361.709,278.356,10.3853
95.7539,4.36987,1.01559,0.0713153,403.672,0.719493,0,342.354,283.441,8.86005
95.2929,2.07661,1.08868,0.286397,369.898,0.957934,0,321.683,263.368,11.9605
93.014,3.14648,0.675831,0.657909,355.554,0.603354,1,364.634,301.732,8.1969
94.3523,3.08834,0.592729,0.17477,353.837,0.842074,1,364.146,294.597,7.963
92.745,4.4743,1.07967,0.141648,429.872,0.760976,1,380.089,302.86,7.43336
93.8015,3.29831,1.2007,0.322806,429.956,0.652414,0,332.654,281.976,9.50825
92.8686,1.68906,0.886097,0.974847,479.256,0.818267,1,351.138,276.533,10.866